Folder: perex/example/operando/EC

Note: README.md
# perex
# Python Environment for Relating Electrochemistry and XAS data

File: 220726cell4operandoxas_C06.mpt
EC-Lab ASCII FILE
Nb header lines : 82

Galvanostatic Cycling with Potential Limitation

Run on channel : 6 (SN 6042)
User :
CE vs. WE compliance from -10 V to 10 V
Electrode connection : standard
Potential control : Ewe
Ewe ctrl range : min = 0,00 V, max = 5,00 V
Safety Limits :
	Do not start on E overload
Acquisition started on : 07/26/2022 22:38:30.190
Loaded Setting File :  C:\Users\Rock-adm\Desktop\electrochem_VMP\220725PEEKMAK_LNO\220725cell1operandoxas_C05.mpr
Saved on :
	File : 220726cell4operandoxas_C06.mpr
	Directory : C:\Users\Rock-adm\Desktop\electrochem_VMP\220725PEEKMAK_LNO\
	Host : 172.19.31.21
Device : VMP3 (SN 0198)
Address : USB
EC-Lab for windows v11.43 (software)
Internet server v11.40 (firmware)
Command interpretor v11.40 (firmware)
Electrode material :
Initial state :
Electrolyte :
Comments : Li-ion 18650 1.35 A.h
Comments : GITT
Mass of active material : 7000,000 mg
 at x = 1,000
Molecular weight of active material (at x = 0) : 90,930 g/mol
Atomic weight of intercalated ion : 6,940 g/mol
Acquisition started at : xo = 0,900
Number of e- transfered per intercalated ion : 1
for DX = 1, DQ = 1916,936 mA.h
Battery capacity : 0,000 A.h
Electrode surface area : 1,000 cm²
Characteristic mass : 1,000 g
Volume (V) : 1,000 cm³
Record Power
Cycle Definition : Charge/Discharge alternance
Ns                  0                   1                   2                   3                   4
Set I/C             I                   I                   I                   I                   I
Is                  0,000               154,000             -154,000            385,000             -385,000
unit Is             mA                  µA                  µA                  µA                  µA
vs.                 <None>              <None>              <None>              <None>              <None>
N                   1,00                1,00                1,00                1,00                1,00
I sign              > 0                 > 0                 > 0                 > 0                 > 0
t1 (h:m:s)          0:00:0,0000         1000:00:0,0000      1000:00:0,0000      1000:00:0,0000      1000:00:0,0000
I Range             100 µA              100 µA              100 µA              1 mA                1 mA
Bandwidth           5                   5                   5                   5                   5
dE1 (mV)            0,00                5,00                5,00                5,00                5,00
dt1 (s)             0,0000              30,0000             30,0000             30,0000             30,0000
EM (V)              0,000               4,300               3,000               4,300               3,000
tM (h:m:s)          0:00:0,0000         0:00:0,0000         0:00:0,0000         0:00:0,0000         0:00:0,0000
Im                  0,000               0,000               0,000               0,000               0,000
unit Im             mA                  mA                  mA                  mA                  mA
dI/dt               0,000               0,000               0,000               0,000               0,000
dunit dI/dt         mA/s                mA/s                mA/s                mA/s                mA/s
E range min (V)     0,000               0,000               0,000               0,000               0,000
E range max (V)     5,000               5,000               5,000               5,000               5,000
dq                  0,000               1,000               1,000               1,000               1,000
unit dq             A.h                 A.h                 A.h                 A.h                 A.h
dtq (s)             0,0000              120,0000            120,0000            120,0000            120,0000
dQM                 0,000               0,000               0,000               0,000               0,000
unit dQM            mA.h                mA.h                mA.h                mA.h                mA.h
dxM                 0,000               0,000               0,000               0,000               0,000
delta SoC (%)       pass                pass                pass                pass                pass
tR (h:m:s)          1:00:10,0000        0:00:0,0000         0:00:0,0000         0:00:0,0000         0:00:0,0000
dER/dt (mV/h)       0,0                 0,1                 0,1                 0,1                 0,1
dER (mV)            0,00                0,00                0,00                0,00                0,00
dtR (s)             1,0000              120,0000            120,0000            120,0000            120,0000
EL (V)              pass                pass                pass                pass                pass
goto Ns'            0                   0                   1                   0                   3
nc cycles           0                   0                   1                   0                   10

Modify on : 07/26/2022 22:39
Ns                  0                   1                   2                   3                   4
dER (mV)            1,00

mode	ox/red	error	control changes	Ns changes	counter inc.	Ns	time/s	dq/mA.h	(Q-Qo)/mA.h	control/V/mA	Ewe/V	I Range	Q charge/discharge/mA.h	half cycle	P/W	<I>/mA	cycle number	Energy charge/W.h	Energy discharge/W.h	Capacitance charge/µF	Capacitance discharge/µF	x	Q discharge/mA.h	Q charge/mA.h	Capacity/mA.h	Efficiency/%	control/V	control/mA
3	1	0	0	0	0	0	0,000000000000000E+000	0,000000000000000E+000	0,000000000000000E+000	0,0000000E+000	3,4912014E+000	14	0,000000000000000E+000	0	0,0000000E+000	0,000000000000000E+000	0,000000000000000E+000	0,000000000000000E+000	0,000000000000000E+000	0,000000000000000E+000	0,000000000000000E+000	8,999999761581421E-001	0,000000000000000E+000	0,000000000000000E+000	0,000000000000000E+000	0,0000000E+000	0,0000000E+000	0,0000000E+000
3	1	0	0	0	0	0	2,749999930529157E+002	0,000000000000000E+000	0,000000000000000E+000	0,0000000E+000	3,4909720E+000	14	0,000000000000000E+000	0	0,0000000E+000	0,000000000000000E+000	0,000000000000000E+000	0,000000000000000E+000	0,000000000000000E+000	0,000000000000000E+000	0,000000000000000E+000	8,999999761581421E-001	0,000000000000000E+000	0,000000000000000E+000	0,000000000000000E+000	0,0000000E+000	0,0000000E+000	0,0000000E+000
3	1	0	0	0	0	0	5,499999861058313E+002	0,000000000000000E+000	0,000000000000000E+000	0,0000000E+000	3,4909148E+000	14	0,000000000000000E+000	0	0,0000000E+000	0,000000000000000E+000	0,000000000000000E+000	0,000000000000000E+000	0,000000000000000E+000	0,000000000000000E+000	0,000000000000000E+000	8,999999761581421E-001	0,000000000000000E+000	0,000000000000000E+000	0,000000000000000E+000	0,0000000E+000	0,0000000E+000	0,0000000E+000
3	1	0	0	0	0	0	8,249999791587470E+002	0,000000000000000E+000	0,000000000000000E+000	0,0000000E+000	3,4908001E+000	14	0,000000000000000E+000	0	0,0000000E+000	0,000000000000000E+000	0,000000000000000E+000	0,000000000000000E+000	0,000000000000000E+000	0,000000000000000E+000	0,000000000000000E+000	8,999999761581421E-001	0,000000000000000E+000	0,000000000000000E+000	0,000000000000000E+000	0,0000000E+000	0,0000000E+000	0,0000000E+000
[...]
1	1	0	1	0	1	1	9,478439349193801E+004	1,282928113864528E-003	1,352787478545368E+000	1,5400001E-001	4,1267204E+000	13	1,059432738392892E+000	4	6,3531019E-004	1,539503838538096E-001	2,000000000000000E+000	4,059934025673674E-003	0,000000000000000E+000	3,430519940447525E+006	0,000000000000000E+000	8,992942730604184E-001	0,000000000000000E+000	1,059432738392892E+000	1,059432738392892E+000	0,0000000E+000	0,0000000E+000	1,5400001E-001
1	1	0	1	0	1	1	1,030344465404499E+005	1,282928008240130E-003	1,705592265883750E+000	1,5400001E-001	4,2700934E+000	13	1,412237512885930E+000	4	6,5738248E-004	1,539503712858983E-001	2,000000000000000E+000	5,542624887414379E-003	0,000000000000000E+000	4,050570109023682E+006	0,000000000000000E+000	8,991102268334500E-001	0,000000000000000E+000	1,412237512885930E+000	1,412237512885930E+000	0,0000000E+000	0,0000000E+000	1,5400001E-001
1	0	0	0	0	1	2	1,106106321484031E+005	-1,283438725233078E-003	1,424134925765302E+000	-1,5400001E-001	4,0506868E+000	13	-3,027827319782882E-001	5	-6,2385295E-004	-1,540116566179008E-001	2,000000000000000E+000	5,634006363332993E-003	1,254912231080596E-003	4,015929119841349E+006	4,544887712461691E+006	8,992570535301402E-001	3,027827319782882E-001	0,000000000000000E+000	3,027827319782882E-001	0,0000000E+000	0,0000000E+000	-1,5400001E-001
1	0	0	0	0	1	2	1,188606851969361E+005	-1,283437886896233E-003	1,071189904199438E+000	-1,5400001E-001	3,8218594E+000	13	-6,557277708379259E-001	5	-5,8861054E-004	-1,540115558991960E-001	2,000000000000000E+000	5,634006363332993E-003	2,647101136159629E-003	4,015929119841349E+006	5,036942314775005E+006	8,994411729125231E-001	6,557277708379259E-001	0,000000000000000E+000	6,557277708379259E-001	0,0000000E+000	0,0000000E+000	-1,5400001E-001
1	0	0	0	0	1	2	1,271107382454467E+005	-1,283430476653079E-003	7,182451895604101E-001	-1,5400001E-001	3,6216950E+000	13	-1,008672497389361E+000	5	-5,5777968E-004	-1,540106667211570E-001	2,000000000000000E+000	5,634006363332993E-003	3,956964696546638E-003	4,015929119841349E+006	5,429249190543140E+006	8,996252921347928E-001	1,008672497389361E+000	0,000000000000000E+000	1,008672497389361E+000	0,0000000E+000	0,0000000E+000	-1,5400001E-001
1	1	0	1	0	0	3	1,338356743408563E+005	6,542833166817824E-006	4,307453238095922E-001	2,4039902E-001	3,1894169E+000	13	1,208688274241156E-004	6	7,6657295E-004	2,403489372193255E-001	3,000000000000000E+000	3,785836579518973E-007	0,000000000000000E+000	2,520683702020488E+003	0,000000000000000E+000	8,997752710110563E-001	0,000000000000000E+000	1,208688274241156E-004	1,208688274241156E-004	0,0000000E+000	0,0000000E+000	2,4039902E-001
1	1	0	1	0	0	3	1,397839134715283E+005	2,002903245652716E-003	8,278702220280344E-001	2,4039902E-001	3,7602909E+000	13	3,972457589884251E-001	6	9,0377970E-004	2,403483518728957E-001	3,000000000000000E+000	1,460493501726063E-003	0,000000000000000E+000	1,923457572304937E+006	0,000000000000000E+000	8,995681044935503E-001	0,000000000000000E+000	3,972457589884251E-001	3,972457589884251E-001	0,0000000E+000	0,0000000E+000	2,4039902E-001
1	1	0	1	0	0	3	1,399686453004307E+005	3,159111321510540E-004	8,402035414918015E-001	2,4039902E-001	3,7662528E+000	13	4,095790781938616E-001	6	9,0521231E-004	2,403482602986824E-001	3,000000000000000E+000	1,506912630578603E-003	0,000000000000000E+000	1,967399277338961E+006	0,000000000000000E+000	8,995616706213503E-001	0,000000000000000E+000	4,095790781938616E-001	4,095790781938616E-001	0,0000000E+000	0,0000000E+000	2,4039902E-001

File: 220726cell4operandoxascontinuation_C06.mpt
EC-Lab ASCII FILE
Nb header lines : 82

Galvanostatic Cycling with Potential Limitation

Run on channel : 6 (SN 6042)
User :
CE vs. WE compliance from -10 V to 10 V
Electrode connection : standard
Potential control : Ewe
Ewe ctrl range : min = 0,00 V, max = 5,00 V
Safety Limits :
	Do not start on E overload
Acquisition started on : 07/28/2022 13:31:45.341
Loaded Setting File :  C:\Users\Rock-adm\Desktop\electrochem_VMP\220725PEEKMAK_LNO\220725cell2operandoxas_C05_C06.mpr
Saved on :
	File : 220726cell4operandoxascontinuation_C06.mpr
	Directory : C:\Users\Rock-adm\Desktop\electrochem_VMP\220725PEEKMAK_LNO\
	Host : 172.19.31.21
Device : VMP3 (SN 0198)
Address : USB
EC-Lab for windows v11.43 (software)
Internet server v11.40 (firmware)
Command interpretor v11.40 (firmware)
Electrode material :
Initial state :
Electrolyte :
Comments : Li-ion 18650 1.35 A.h
Comments : GITT
Mass of active material : 7000,000 mg
 at x = 1,000
Molecular weight of active material (at x = 0) : 90,930 g/mol
Atomic weight of intercalated ion : 6,940 g/mol
Acquisition started at : xo = 0,900
Number of e- transfered per intercalated ion : 1
for DX = 1, DQ = 1916,936 mA.h
Battery capacity : 0,000 A.h
Electrode surface area : 1,000 cm²
Characteristic mass : 1,000 g
Volume (V) : 1,000 cm³
Record Power
Cycle Definition : Charge/Discharge alternance
Ns                  0                   1                   2
Set I/C             I                   I                   I
Is                  0,000               385,000             -385,000
unit Is             mA                  µA                  µA
vs.                 <None>              <None>              <None>
N                   1,00                1,00                1,00
I sign              > 0                 > 0                 > 0
t1 (h:m:s)          0:00:0,0000         1000:00:0,0000      1000:00:0,0000
I Range             1 mA                1 mA                1 mA
Bandwidth           5                   5                   5
dE1 (mV)            0,00                5,00                5,00
dt1 (s)             0,0000              30,0000             30,0000
EM (V)              0,000               4,300               3,000
tM (h:m:s)          0:00:0,0000         50:00:0,0000        0:00:0,0000
Im                  0,000               0,000               0,000
unit Im             mA                  mA                  mA
dI/dt               0,000               0,000               0,000
dunit dI/dt         mA/s                mA/s                mA/s
E range min (V)     0,000               0,000               0,000
E range max (V)     5,000               5,000               5,000
dq                  0,000               1,000               1,000
unit dq             A.h                 A.h                 A.h
dtq (s)             0,0000              30,0000             120,0000
dQM                 0,000               0,000               0,000
unit dQM            mA.h                mA.h                mA.h
dxM                 0,000               0,000               0,000
delta SoC (%)       pass                pass                pass
tR (h:m:s)          1:00:10,0000        0:00:0,0000         0:00:0,0000
dER/dt (mV/h)       0,0                 0,1                 0,1
dER (mV)            0,00                0,00                0,00
dtR (s)             1,0000              120,0000            120,0000
EL (V)              pass                pass                pass
goto Ns'            0                   0                   1
nc cycles           0                   0                   99

Modify on : 07/28/2022 16:44
Ns                  0                   1                   2
tM (h:m:s)                              0:00:0,0000

mode	ox/red	error	control changes	Ns changes	counter inc.	Ns	time/s	dq/mA.h	(Q-Qo)/mA.h	control/V/mA	Ewe/V	I Range	Q charge/discharge/mA.h	half cycle	P/W	Energy charge/W.h	Energy discharge/W.h	Capacitance charge/µF	Capacitance discharge/µF	<I>/mA	x	Q discharge/mA.h	Q charge/mA.h	Capacity/mA.h	Efficiency/%	control/V	control/mA	cycle number
3	1	0	1	0	0	0	0,000000000000000E+000	0,000000000000000E+000	0,000000000000000E+000	0,0000000E+000	3,7516155E+000	14	0,000000000000000E+000	0	0,0000000E+000	0,000000000000000E+000	0,000000000000000E+000	0,000000000000000E+000	0,000000000000000E+000	0,000000000000000E+000	8,999999761581421E-001	0,000000000000000E+000	0,000000000000000E+000	0,000000000000000E+000	0,0000000E+000	0,0000000E+000	0,0000000E+000	0,000000000000000E+000
1	1	0	0	0	0	1	1,609610159337826E+003	3,204565403295888E-003	1,715338918499260E-001	3,8500002E-001	3,8782682E+000	12	1,715338918779614E-001	2	1,4913798E-003	6,561059523592567E-004	0,000000000000000E+000	5,134972590789205E+006	0,000000000000000E+000	3,845478581100025E-001	8,999104927760418E-001	0,000000000000000E+000	1,715338918779614E-001	1,715338918779614E-001	0,0000000E+000	0,0000000E+000	3,8500002E-001	1,000000000000000E+000
1	1	0	0	0	0	1	3,439610113108138E+003	3,204540213748813E-003	3,670109185058988E-001	3,8500002E-001	4,0033927E+000	12	3,670109185339335E-001	2	1,5394840E-003	1,428346641215659E-003	0,000000000000000E+000	5,384406188774083E+006	0,000000000000000E+000	3,845448353642771E-001	8,998085190769703E-001	0,000000000000000E+000	3,670109185339335E-001	3,670109185339335E-001	0,0000000E+000	0,0000000E+000	3,8500002E-001	1,000000000000000E+000
1	1	0	0	0	0	1	5,269610082317202E+003	3,204486805048254E-003	5,624874703626831E-001	3,8500002E-001	4,1135354E+000	12	5,624874689540091E-001	2	1,5818124E-003	2,219369969258714E-003	0,000000000000000E+000	5,695671006766606E+006	0,000000000000000E+000	3,845384212614715E-001	8,997065456255854E-001	0,000000000000000E+000	5,624874689540091E-001	5,624874689540091E-001	0,0000000E+000	0,0000000E+000	3,8500002E-001	1,000000000000000E+000
1	1	0	0	0	0	1	7,099610060161038E+003	3,204528338130978E-003	7,579633445523382E-001	3,8500002E-001	4,2267547E+000	12	7,579633402309129E-001	2	1,6253707E-003	3,038639312063592E-003	0,000000000000000E+000	5,821226552038911E+006	0,000000000000000E+000	3,845434052314587E-001	8,996045725277162E-001	0,000000000000000E+000	7,579633402309129E-001	7,579633402309129E-001	0,0000000E+000	0,0000000E+000	3,8500002E-001	1,000000000000000E+000
2	1	0	1	0	0	1	8,850895638957882E+003	1,541789379371537E-003	9,181587314593138E-001	4,3000197E+000	4,3013744E+000	12	9,181587246911208E-001	2	7,9581758E-004	3,722967675345443E-003	0,000000000000000E+000	6,083159109791961E+006	0,000000000000000E+000	1,850147277645935E-001	8,995210040570035E-001	0,000000000000000E+000	9,181587246911208E-001	9,181587246911208E-001	0,0000000E+000	4,3000197E+000	0,0000000E+000	1,000000000000000E+000
2	1	0	1	0	0	1	1,068089561680172E+004	6,767335607343250E-004	9,785010692673921E-001	4,3000197E+000	4,3014507E+000	12	9,785010605620035E-001	2	3,4931232E-004	3,982520622243273E-003	0,000000000000000E+000	6,482040438786426E+006	0,000000000000000E+000	8,120802827132030E-002	8,994895255170330E-001	0,000000000000000E+000	9,785010605620035E-001	9,785010605620035E-001	0,0000000E+000	4,3000197E+000	0,0000000E+000	1,000000000000000E+000
[...]
1	1	0	1	0	1	1	2,321291126507416E+004	3,144699132608043E-005	-2,495185141227576E-001	3,8500002E-001	3,4998767E+000	12	9,743012011945249E-004	4	1,3458497E-003	3,271136899437970E-006	0,000000000000000E+000	7,326356402855951E+003	0,000000000000000E+000	3,845420181946213E-001	9,001301414584191E-001	0,000000000000000E+000	9,743012011945249E-004	9,743012011945249E-004	0,0000000E+000	0,0000000E+000	3,8500002E-001	2,000000000000000E+000
1	1	0	1	0	1	1	2,449579784954205E+004	3,204513262690769E-003	-1,124842388771789E-001	3,8500002E-001	3,6708810E+000	12	1,380085764467733E-001	4	1,4116064E-003	5,027545568327382E-004	0,000000000000000E+000	7,646456477248883E+005	0,000000000000000E+000	3,845415961786118E-001	9,000586553498701E-001	0,000000000000000E+000	1,380085764467733E-001	1,380085764467733E-001	0,0000000E+000	0,0000000E+000	3,8500002E-001	2,000000000000000E+000
1	1	0	1	0	1	1	2,632579782738589E+004	3,204538476710518E-003	8,299326674522128E-002	3,8500002E-001	3,7599468E+000	12	3,334860820691735E-001	4	1,4458672E-003	1,227718206436404E-003	0,000000000000000E+000	1,624958324181417E+006	0,000000000000000E+000	3,845446218610183E-001	8,999566814009380E-001	0,000000000000000E+000	3,334860820691735E-001	3,334860820691735E-001	0,0000000E+000	0,0000000E+000	3,8500002E-001	2,000000000000000E+000
1	1	0	1	0	1	1	2,815579780522973E+004	3,204561141946249E-003	2,784712127714571E-001	3,8500002E-001	3,8749816E+000	12	5,289640280954092E-001	4	1,4901139E-003	1,973174819821212E-003	0,000000000000000E+000	2,230206996195280E+006	0,000000000000000E+000	3,845473416893390E-001	8,998547072222624E-001	0,000000000000000E+000	5,289640280954092E-001	5,289640280954092E-001	0,0000000E+000	0,0000000E+000	3,8500002E-001	2,000000000000000E+000
1	1	0	1	0	1	1	2,998579778307356E+004	3,204571344448460E-003	4,739487111504906E-001	3,8500002E-001	4,0049214E+000	12	7,244415263566520E-001	4	1,5400868E-003	2,745832973315406E-003	0,000000000000000E+000	2,650952158771082E+006	0,000000000000000E+000	3,845485659896191E-001	8,997527332771090E-001	0,000000000000000E+000	7,244415263566520E-001	7,244415263566520E-001	0,0000000E+000	0,0000000E+000	3,8500002E-001	2,000000000000000E+000
1	1	0	1	0	1	1	3,181320336094878E+004	3,204621262298690E-003	6,691509315050741E-001	3,8500002E-001	4,1450458E+000	12	9,196437438036067E-001	4	1,5939963E-003	3,537137232191181E-003	0,000000000000000E+000	2,945693559142758E+006	0,000000000000000E+000	3,845545561317192E-001	8,996509029351141E-001	0,000000000000000E+000	9,196437438036067E-001	9,196437438036067E-001	0,0000000E+000	0,0000000E+000	3,8500002E-001	2,000000000000000E+000
1	1	0	1	0	1	1	3,364320335101914E+004	3,204595923922128E-003	8,646311166291039E-001	3,8500002E-001	4,2372456E+000	12	1,115123926014761E+000	4	1,6294391E-003	4,359047782115944E-003	0,000000000000000E+000	3,301034427992083E+006	0,000000000000000E+000	3,845515101543724E-001	8,995489275883775E-001	0,000000000000000E+000	1,115123926014761E+000	1,115123926014761E+000	0,0000000E+000	0,0000000E+000	3,8500002E-001	2,000000000000000E+000
1	0	0	0	0	1	2	3,450666915262747E+004	-2,832042826852865E-003	8,938358973457846E-001	-3,8500002E-001	4,1533771E+000	12	-3,154964159688851E-002	5	-1,6006967E-003	4,618143136323607E-003	1,310404473430613E-004	3,310375372108281E+006	8,270520529689569E+005	-3,853964269458745E-001	8,995336924501558E-001	3,154964159688851E-002	0,000000000000000E+000	3,154964159688851E-002	2,6830702E+000	0,0000000E+000	-3,8500002E-001	2,000000000000000E+000